Folder: GSAS-II/test-G2sc-size-strain

Note: README.md
# GSAS-II
[![Documentation Status][rtd-badge]][rtd-link]
[![Actions Status][actions-badge]][actions-link]

<!--   commented out for now
[![PyPI version][pypi-version]][pypi-link]
[![Conda-Forge][conda-badge]][conda-link]
[![PyPI platforms][pypi-platforms]][pypi-link]
[![GitHub Discussion][github-discussions-badge]][github-discussions-link]
--!>

<!-- SPHINX-START -->

<!-- prettier-ignore-start -->
[actions-badge]:            https://github.com/AdvancedPhotonSource/GSAS-II/workflows/CI/badge.svg
[actions-link]:             https://github.com/AdvancedPhotonSource/GSAS-II/actions
[conda-badge]:              https://img.shields.io/conda/vn/conda-forge/GSAS-II
[conda-link]:               https://github.com/conda-forge/GSAS-II-feedstock
[github-discussions-badge]: https://img.shields.io/static/v1?label=Discussions&message=Ask&color=blue&logo=github
[github-discussions-link]:  https://github.com/AdvancedPhotonSource/GSAS-II/discussions
[pypi-link]:                https://pypi.org/project/GSAS-II/
[pypi-platforms]:           https://img.shields.io/pypi/pyversions/GSAS-II
[pypi-version]:             https://img.shields.io/pypi/v/GSAS-II
[rtd-badge]:                https://readthedocs.org/projects/GSAS-II/badge/?version=latest
[rtd-link]:                 https://GSAS-II.readthedocs.io/en/latest/?badge=latest

<!-- prettier-ignore-end -->

## Summary
GSAS-II is used to analyze all types of x-ray and neutron
diffraction data, including single-crystal, powder, 
constant-wavelength, pink-beam and time-of-flight, lab,
synchrotron, spallation and reactor sources, including Rietveld
analysis. It can handle large numbers of datasets. 
GSAS-II is free open source software.

## URLs
* The
  [home page for GSAS-II](https://advancedphotonsource.github.io/GSAS-II-tutorials) has 
  [installation instructions](https://advancedphotonsource.github.io/GSAS-II-tutorials/install.html) and a link
  to [the downloads location](https://github.com/AdvancedPhotonSource/GSAS-II-buildtools/releases/latest).
  (There might be some content only at
  [the home page](https://subversion.xray.aps.anl.gov/trac/pyGSAS), but I hope not.)

* [This repo](https://github.com/AdvancedPhotonSource/GSAS-II) is the main repository for the GSAS-II source code (replacing the
  [old subversion site](https://subversion.xray.aps.anl.gov/pyGSAS)
  and the [trac web site](https://subversion.xray.aps.anl.gov/trac/pyGSAS/browser)), but there are two additional repo's associated with GSAS-II
  * [GSAS-II installation tools](https://github.com/AdvancedPhotonSource/GSAS-II-buildtools) that includes [downloads](https://github.com/AdvancedPhotonSource/GSAS-II-buildtools/releases/latest) as well as [automated build/test scripts](https://github.com/AdvancedPhotonSource/GSAS-II/actions)
  and
  * [GSAS-II web content](https://github.com/AdvancedPhotonSource/GSAS-II-tutorials) that includes [tutorials](https://advancedphotonsource.github.io/GSAS-II-tutorials/tutorials.html). 
 
* Code documentation: https://gsas-ii.

File: xrd_LaB6_660c_std_brac2_20250724-194924_70c707_primary-1_mean_tth.chi
# chi_2theta chi_I
0.647266 30.6552
0.6993 24.8041
0.751334 28.0876
0.803369 29.3337
0.855403 29.4458
0.907437 29.732
0.959472 29.8362
1.01151 29.9004
1.06354 29.9536
1.11557 29.8858
1.16761 30.101
1.21964 30.2825
1.27168 30.2143
1.32371 30.1074
1.37575 30.1808
1.42778 30.3838
1.47982 30.2765
1.53185 30.4603
1.58388 30.8211
1.63592 30.9126
1.68795 31.339
1.73999 31.4983
1.79202 31.7188
1.84406 32.0707
1.89609 32.4447
1.94813 32.7582
2.00016 33.0243
2.05219 33.5001
2.10423 33.9695
2.15626 35.0974
2.2083 37.99
2.26033 107.053
2.31237 500.522
2.3644 39.5459
2.41643 34.134
2.46847 32.3283
2.5205 31.369
2.57254 30.8123
2.62457 30.5073
2.67661 30.267
2.72864 30.2221
2.78068 30.2087
2.83271 30.2719
2.88474 30.309
2.93678 30.5188
2.98881 30.8501
3.04085 31.915
3.09288 33.7747
3.14492 38.0957
3.19695 69.9792
3.24898 2631.71
3.30102 53.9653
3.35305 36.5207
3.40509 32.3951
3.45712 29.9217
3.50916 29.3429
3.56119 28.6775
3.61323 28.3958
3.66526 28.2718
3.71729 28.5389
3.76933 28.7023
3.82136 29.4507
3.8734 31.4299
3.92543 44.7975
3.97747 1200.98
4.0295 39.6608
4.08153 30.9362
4.13357 29.0475
4.1856 28.2767
4.23764 27.8631
4.28967 27.6675
4.34171 27.6199
4.39374 27.9493
4.44578 28.5817
4.49781 29.7189
4.54984 46.7135
4.60188 391.381
4.65391 32.1195
4.70595 29.5
4.75798 28.4832
4.81002 28.3576
4.86205 28.2941
4.91408 28.7764
4.96612 29.5877
5.01815 31.5894
5.07019 39.3464
5.12222 1105.3
5.17426 62.0449
5.22629 33.0092
5.27833 30.1346
5.33036 28.884
5.38239 28.4413
5.43443 28.4373
5.48646 28.9883
5.5385 30.779
5.59053 86.3041
5.64257 233.578
5.6946 31.644
5.74663 28.8559
5.79867 27.8497
5.8507 27.4261
5.90274 27.1013
5.95477 26.9813
6.00681 27.0019
6.05884 26.9704
6.11088 27.0084
6.16291 26.9962
6.21494 27.1785
6.26698 27.2794
6.31901 27.5315
6.37105 28.027
6.42308 29.3338
6.47512 146.982
6.52715 46.0803
6.57918 29.3516
6.63122 28.8789
6.68325 28.9369
6.73529 29.5678
6.78732 31.2285
6.83936 43.4525
6.89139 852.768
6.94343 38.1415
6.99546 31.4733
7.04749 30.2188
7.09953 29.9319
7.15156 30.7031
7.2036 35.1699
7.25563 604.415
7.30767 40.594
7.3597 31.0118
7.41173 29.9476
7.46377 29.6001
7.5158 30.0549
7.56784 35.8464
7.61987 397.748
7.67191 32.9243
7.72394 29.6781
7.77598 28.8937
7.82801 28.6561
7.88004 28.7132
7.93208 44.9756
7.98411 36.6661
8.03615 28.7745
8.08818 28.6654
8.14022 28.8882
8.19225 29.5012
8.24428 42.0812
8.29632 147.405
8.34835 30.6284
8.40039 29.8057
8.45242 29.9363
8.50446 31.0066
8.55649 53.8524
8.60853 295.145
8.66056 32.6937
8.71259 30.2736
8.76463 29.3655
8.81666 29.0355
8.8687 28.8569
8.92073 28.8001
8.97277 28.8528
9.0248 28.9214
9.07683 29.0728
9.12887 29.6779
9.1809 95.4118
9.23294 31.5698
9.28497 29.842
9.33701 30.0996
9.38904 31.1731
9.44108 69.09
9.49311 154.067
9.54514 32.2249
9.59718 31.0748
9.64921 31.062
9.70125 36.4206
9.75328 286.262
9.80532 33.0969
9.85735 30.6188
9.90938 30.2208
9.96142 31.0415
10.0135 136.202
10.0655 31.7173
10.1175 30.0019
10.1696 30.0555
10.2216 31.4769
10.2736 171.606
10.3257 33.082
10.3777 30.5998
10.4297 30.8762
10.4818 35.3327
10.5338 304.068
10.5858 34.3097
10.6379 31.0277
10.6899 30.6066
10.7419 37.2715
10.794 110.252
10.846 30.676
10.898 29.7604
10.9501 29.4761
11.0021 29.2923
11.0541 29.3054
11.1062 29.3347
11.1582 29.533
11.2102 30.4537
11.2623 95.859
11.3143 30.6575
11.3663 29.8216
11.4184 30.0005
11.4704 47.8863
11.5225 43.9811
11.5745 30.5734
11.6265 30.9969
11.6786 38.2346
11.7306 245.85
11.7826 33.4005
11.8347 31.1588
11.8867 31.5231
11.9387 124.059
11.9908 35.0238
12.0428 30.3299
12.0948 30.0143
12.1469 29.9252
12.1989 29.8464
12.2509 30.1652
12.303 30.8312
12.355 63.1886
12.407 94.5734
12.4591 31.3787
12.5111 30.7028
12.5631 37.5299
12.6152 62.0193
12.6672 30.3726
12.7192 29.8761
12.7713 29.6798
12.8233 29.5984
12.8753 29.6737
12.9274 29.7837
12.9794 34.1858
13.0314 45.1774
13.0835 30.3126
13.1355 30.6263
13.1876 57.2291
13.2396 67.1856
13.2916 31.1852
13.3437 31.3004
13.3957 85.3969
13.4477 48.3368
13.4998 30.971
13.5518 31.459
13.6038 106.764
13.6559 34.7722
13.7079 30.6847
13.7599 31.9674
13.812 72.991
13.864 30.6715
13.916 30.1493
13.9681 35.5652
14.0201 40.3694
14.0721 30.1958
14.1242 30.6064
14.1762 97.1639
14.2282 35.4937
14.2803 29.9436
14.3323 29.7854
14.3843 29.5626
14.4364 29.5314
14.4884 29.6134
14.5404 49.0623
14.5925 34.3638
14.6445 30.2159
14.6965 35.9838
14.7486 111.577
14.8006 31.331
14.8527 30.3924
14.9047 57.8106
14.9567 34.4216
15.0088 29.6009
15.0608 31.9623
15.1128 40.9418
15.1649 29.5728
15.2169 29.6894
15.2689 45.2095
15.321 30.2396
15.373 29.9774
15.425 62.2617
15.4771 44.622
15.5291 29.6595
15.5811 33.5591
15.6332 55.3854
15.6852 29.9453
15.7372 28.7414
15.7893 28.4043
15.8413 28.1503
15.8673 29.1738